inst1_resp.keys,inst1_resp.rt,calibrationMouse.x,calibrationMouse.y,calibrationMouse.leftButton,calibrationMouse.midButton,calibrationMouse.rightButton,calibrationClick.x,calibrationClick.y,calibrationClick.leftButton,calibrationClick.midButton,calibrationClick.rightButton,calibrationClick.clicked_name,trials.thisRepN,trials.thisTrialN,trials.thisN,trials.thisIndex,trials.ran,calibration_x,calibration_y,participant,session,date,expName,psychopyVersion,OS,frameRate,tracking_resp.keys,tracking_resp.rt
space,7.8064,0.069821931,0.029522024,1,0,0,0.221649485,0.433770692,1,0,0,calibration_square,0,0,0,19,1,0.22,0.44,,001,2025-02-27_24h58.08.601,demo_eye_tracking2,2021.2.3,Win32,60.97560976,,
,,,,,,,-0.203217725,0.010777882,1,0,0,,0,1,1,7,1,-0.22,0,,001,2025-02-27_24h58.08.601,demo_eye_tracking2,2021.2.3,Win32,60.97560976,,
,,,,,,,-0.128865979,0.041393305,0,0,0,,0,2,2,18,1,0.22,0.22,,001,2025-02-27_24h58.08.601,demo_eye_tracking2,2021.2.3,Win32,60.97560976,,
,,,,,,,-0.021399544,0.010153058,1,0,0,,0,3,3,12,1,0,0,,001,2025-02-27_24h58.08.601,demo_eye_tracking2,2021.2.3,Win32,60.97560976,,
,,,,,,,0.001093427,-0.13042801,0,0,0,,0,4,4,10,1,0,-0.44,,001,2025-02-27_24h58.08.601,demo_eye_tracking2,2021.2.3,Win32,60.97560976,,
,,,,,,,-0.233833177,-0.215401475,1,0,0,,0,5,5,6,1,-0.22,-0.22,,001,2025-02-27_24h58.08.601,demo_eye_tracking2,2021.2.3,Win32,60.97560976,,
,,,,,,,-0.445017163,0.220087454,1,0,0,calibration_square,0,6,6,3,1,-0.44,0.22,,001,2025-02-27_24h58.08.601,demo_eye_tracking2,2021.2.3,Win32,60.97560976,,
,,,,,,,-0.436894711,-0.435332709,1,0,0,calibration_square,0,7,7,0,1,-0.44,-0.44,,001,2025-02-27_24h58.08.601,demo_eye_tracking2,2021.2.3,Win32,60.97560976,,
,,,,,,,0.212277413,-0.198531747,1,0,0,,0,8,8,16,1,0.22,-0.22,,001,2025-02-27_24h58.08.601,demo_eye_tracking2,2021.2.3,Win32,60.97560976,,
,,,,,,,0.226023194,-0.009840675,1,0,0,calibration_square,0,9,9,17,1,0.22,0,,001,2025-02-27_24h58.08.601,demo_eye_tracking2,2021.2.3,Win32,60.97560976,,
,,,,,,,0.690253046,0.220087454,1,0,0,,0,10,10,32,1,0.66,0.22,,001,2025-02-27_24h58.08.601,demo_eye_tracking2,2021.2.3,Win32,60.97560976,,
,,,,,,,0.684005037,-0.01983757,1,0,0,,0,11,11,31,1,0.66,0,,001,2025-02-27_24h58.08.601,demo_eye_tracking2,2021.2.3,Win32,60.97560976,,
,,,,,,,0.461574508,0.208840968,1,0,0,,0,12,12,23,1,0.44,0.22,,001,2025-02-27_24h58.08.601,demo_eye_tracking2,2021.2.3,Win32,60.97560976,,
,,,,,,,0.01983757,0.416900964,1,0,0,,0,13,13,14,1,0,0.44,,001,2025-02-27_24h58.08.601,demo_eye_tracking2,2021.2.3,Win32,60.97560976,,
,,,,,,,-0.659325211,0.004529815,1,0,0,calibration_square,0,14,14,27,1,-0.66,0,,001,2025-02-27_24h58.08.601,demo_eye_tracking2,2021.2.3,Win32,60.97560976,,
,,,,,,,0.688378632,-0.439706361,1,0,0,,0,15,15,29,1,0.66,-0.44,,001,2025-02-27_24h58.08.601,demo_eye_tracking2,2021.2.3,Win32,60.97560976,,
,,,,,,,-0.428147435,-0.007966261,1,0,0,,0,16,16,2,1,-0.44,0,,001,2025-02-27_24h58.08.601,demo_eye_tracking2,2021.2.3,Win32,60.97560976,,
,,,,,,,-0.647453916,-0.426585461,1,0,0,,0,17,17,25,1,-0.66,-0.44,,001,2025-02-27_24h58.08.601,demo_eye_tracking2,2021.2.3,Win32,60.97560976,,
,,,,,,,-0.68056857,-0.237269622,1,0,0,,0,18,18,26,1,-0.66,-0.22,,001,2025-02-27_24h58.08.601,demo_eye_tracking2,2021.2.3,Win32,60.97560976,,
,,,,,,,0.014214327,0.221961868,1,0,0,,0,19,19,13,1,0,0.22,,001,2025-02-27_24h58.08.601,demo_eye_tracking2,2021.2.3,Win32,60.97560976,,
,,,,,,,-0.211964973,0.436894718,1,0,0,calibration_square,0,20,20,9,1,-0.22,0.44,,001,2025-02-27_24h58.08.601,demo_eye_tracking2,2021.2.3,Win32,60.97560976,,
,,,,,,,0.014214327,-0.215401475,1,0,0,,0,21,21,11,1,0,-0.22,,001,2025-02-27_24h58.08.601,demo_eye_tracking2,2021.2.3,Win32,60.97560976,,
,,,,,,,0.044204955,0.087628866,1,0,0,,0,22,22,20,1,0.44,-0.44,,001,2025-02-27_24h58.08.601,demo_eye_tracking2,2021.2.3,Win32,60.97560976,,
,,,,,,,0.427210285,0.418150576,1,0,0,,0,23,23,24,1,0.44,0.44,,001,2025-02-27_24h58.08.601,demo_eye_tracking2,2021.2.3,Win32,60.97560976,,
,,,,,,,-0.224461106,0.229459525,1,0,0,calibration_square,0,24,24,8,1,-0.22,0.22,,001,2025-02-27_24h58.08.601,demo_eye_tracking2,2021.2.3,Win32,60.97560976,,
,,,,,,,0.21977507,-0.428459875,1,0,0,,0,25,25,15,1,0.22,-0.44,,001,2025-02-27_24h58.08.601,demo_eye_tracking2,2021.2.3,Win32,60.97560976,,
,,,,,,,0.652139994,0.43814433,1,0,0,calibration_square,0,26,26,33,1,0.66,0.44,,001,2025-02-27_24h58.08.601,demo_eye_tracking2,2021.2.3,Win32,60.97560976,,
,,,,,,,-0.224461106,-0.439081537,1,0,0,calibration_square,0,27,27,5,1,-0.22,-0.44,,001,2025-02-27_24h58.08.601,demo_eye_tracking2,2021.2.3,Win32,60.97560976,,
,,,,,,,-0.423773811,0.445017181,1,0,0,,0,28,28,4,1,-0.44,0.44,,001,2025-02-27_24h58.08.601,demo_eye_tracking2,2021.2.3,Win32,60.97560976,,
,,,,,,,0.430334347,-0.211652647,1,0,0,calibration_square,0,29,29,21,1,0.44,-0.22,,001,2025-02-27_24h58.08.601,demo_eye_tracking2,2021.2.3,Win32,60.97560976,,
,,,,,,,0.660262418,-0.229147142,1,0,0,calibration_square,0,30,30,30,1,0.66,-0.22,,001,2025-02-27_24h58.08.601,demo_eye_tracking2,2021.2.3,Win32,60.97560976,,
,,,,,,,0.440955951,-0.007341494,1,0,0,calibration_square,0,31,31,22,1,0.44,0,,001,2025-02-27_24h58.08.601,demo_eye_tracking2,2021.2.3,Win32,60.97560976,,
,,,,,,,-0.413152121,-0.219150304,1,0,0,,0,32,32,1,1,-0.44,-0.22,,001,2025-02-27_24h58.08.601,demo_eye_tracking2,2021.2.3,Win32,60.97560976,,
,,,,,,,-0.617463288,0.191346445,1,0,0,,0,33,33,28,1,-0.66,0.22,,001,2025-02-27_24h58.08.601,demo_eye_tracking2,2021.2.3,Win32,60.97560976,,
,,,,,,,,,,,,,,,,,,,,,001,2025-02-27_24h58.08.601,demo_eye_tracking2,2021.2.3,Win32,60.97560976,space,14.9009
